File: files/ZnO_Eu.csv
Sample 24,
Wavelength (nm),Intensity (a.u.)
500,0.341401
501.02,0.517666
502.05,0.333109
502.94,0.536876
503.97,0.446875
505,0.372543
506.02,0.636613
507.05,0.499931
507.94,0.369551
508.97,0.583927
510,0.162374
511.04,0.676932
511.94,0.475834
512.98,0.486612
514.02,0.372536
515.07,0.507074
515.97,0.850919
517.01,0.219472
518.05,0.495836
518.95,0.327075
520,0.607487
521.02,0.604549
522.05,0.307143
522.94,0.501593
523.97,0.196165
525,0.391521
526.02,0.508382
527.05,0.569008
527.94,0.708291
528.97,0.662845
530,0.326332
531.02,0.541756
532.05,0.890646
532.94,0.664561
533.97,0.57079
535,0.526312
536.02,1.00402
537.05,1.02868
537.94,0.968572
538.97,0.960377
540,0.701066
541.02,0.667183
542.05,0.790599
542.94,0.0760201
543.97,0.71383
545,0.606038
546.02,0.580475
547.05,0.67104
547.94,0.181905
548.97,0.318297
550,0.175421
551.02,1.11602
552.05,0.346686
552.94,0.429637
553.97,0.680546
555,0.872334
556.02,0.843031
557.05,0.250955
557.94,0.570275
558.97,1.0096
560,0.963998
561.02,0.946246
562.05,0.817283
562.94,0.963923
563.97,1.58046
565,1.41383
566.02,1.71782
567.05,2.23866
567.94,2.10616
568.97,3.06589
570,5.94074
571.01,7.6883
572.02,11.3464
573.04,17.6771
574.05,29.8177
575.07,43.4447
575.94,57.3359
576.95,67.3345
577.97,70.1413
578.98,66.4462
580,57.7865
581.01,50.2425
582.02,49.4823
583.04,53.215
584.05,64.369
585.07,71.9261
585.94,79.6423
586.95,86.901
587.97,93.5762
588.98,97.42
590,103.314
591.02,104.125
592.05,103.434
592.94,96.5045
593.97,94.5519
595,90.4382
596.02,87.54
597.05,83.8604
597.94,81.0906
598.97,74.6779
600,66.4898
601,62.4297
602,57.1997
603,59.2144
604,66.0974
605,84.9095
606,118.165
607,164.898
608,237.12
609,304.426
610,380.54
611.01,451.928
612.02,504.06
613.04,530.43
614.05,536.619
615.07,523.948
615.94,512.113
616.95,480.838
617.97,466.592
618.98,431.346
620,399.478
621.01,375.286
622.02,340.098
623.04,313.228
624.05,280.369
625.07,244.585
625.94,219.55
626.95,186.9
627.97,156.919
628.98,125.885
630,97.6999
631,73.2386
632,57.7751
633,42.9879
634,31.2988
635,23.8581
636,21.3375
637,17.6107
638,16.2787
639,14.4221
640,14.2051
641,12.862
642,13.0433
643,13.4883
644,14.3353
645,15.4629
646,16.7379
647,17.8201
648,20.568
649,23.4143
650,23.8539
651,25.7304
652,28.9141
653,27.7573
654,26.6579
655,27.9077
656,26.0946
657,22.7736
658,20.4465
659,15.2851
660,13.9442
661,10.2461
662,8.90058
663,7.43583
664,6.10661
665,5.81417
666,4.23779
667,4.12224
668,4.15321
669,3.50256
670,3.57322
670.98,3.37376
671.97,4.18176
672.95,3.15593
673.94,4.2043
675.07,3.69171
676.05,3.90677
677.04,4.82763
678.02,5.01236
679.01,6.30573
680,6.86875
680.98,7.67887
681.97,9.10746
682.95,11.1137
683.94,12.7557
685.07,15.5966
686.05,16.1476
687.04,18.1063
688.02,18.7498
689.01,21.0309
690,23.7691
690.98,25.5351
691.97,27.071
692.95,30.5786
693.94,31.8228
695.07,33.7586
696.05,35.5338
697.04,37.847
698.02,41.4832
699.01,45.6982
700,52.3942
700.98,57.9215
701.97,62.4158
702.95,63.0487
703.94,66.8438
705.07,64.8603
706.05,60.5327
707.04,53.4197
708.02,41.8291
709.01,31.0401
710,22.0671
710.97,15.6731
711.94,10.0691
713.05,6.80109
714.02,5.15783
715,3.68114
715.97,2.69124
716.94,1.98037
718.05,2.31565
719.02,1.92902
720,1.69202
720.98,2.12274
721.97,1.12998
722.95,1.1749
723.94,1.18853
725.07,0.992507
726.05,0.829665
727.04,1.02776
728.02,0.743532
729.01,0.681544
730,0.4776
730.95,0.379214
732.05,0.737408
733.01,0.548837
733.97,0.737896
735.06,0.778874
736.02,0.879291
736.98,0.794992
737.94,1.05901
739.04,1.01906
740,1.21418
740.97,1.36122
741.94,0.933942
743.05,1.46409
744.02,1.41702
745,1.60378
745.97,1.78224
746.94,1.6828
748.05,1.86575
749.02,1.91141
750,1.39297
750.97,0.97431
751.94,1.53641
753.05,1.12179
754.02,1.55209
755,1.19876
755.97,0.496543
756.94,1.29395
758.05,0.922422
759.02,0.879695
760,0.771552
760.95,0.978705
762.05,0.847473
763.01,0.65302
763.97,0.763719
765.06,0.459027
766.02,0.887083
766.98,0.653176
767.94,0.239064
769.04,0.168526
770,0.438209
770.95,0.302385
772.05,0.614312
773.01,0
773.97,0.225629
775.06,0.0939667
776.02,0.230822
776.98,0
777.94,0.864533
779.04,0.331202
780,0.0936961
780.94,0.258147
782.02,0
782.97,0.213627
784.05,0.724368
785,0.430701
785.94,0.300807
787.02,0.170736
787.97,0.213365
789.05,0.793981
790,0.295638
790.94,0.830142
792.02,0.392197
792.97,0.942248
794.05,1.09723
795,0.963094
795.94,0.5476
797.02,1.25736
797.97,0.727711
799.05,1.46428
800,0.926507
800.94,1.61534
802.02,1.29745
802.97,1.40367
804.05,1.32739
805,1.11204
805.94,1.50039
807.02,1.32806
807.97,1.21798
809.05,1.26127
810,1.20197
810.94,1.32114
812.02,1.45513
812.97,1.49658
814.05,0.79017
815,1.23899
815.94,0.594824
817.02,0.752559
817.97,1.23673
819.05,0.83705
820,0.887977
821.06,0.866305
822,0.895706
823.06,0.693577
824,0.910798
825.06,0.653279
826,0.819171
827.06,0.525496
828,0.455615
829.06,0.741933
830,0.515795
831.06,0.295877
832,0.280713
833.06,0.377086
834,0.428611
835.06,0.331648
836,0
837.06,0
838,0
839.06,0.409511
840,0.224749
841.06,0
842,0.3349
843.06,0.245246
844,0.69484
845.06,0.256072
846,0.262467
847.06,0.0749733
848,0
849.06,0.0991387
850,0
851.05,0.02501501
851.97,0.376974
853.02,0.371051
853.94,0.294118
855,0.0251031
856.05,0.0944002
856.97,0
858.02,0.306003
858.94,0
860,0
861.05,0.2392
861.97,0.419957
863.02,0
863.94,0.138083
865,0
866.05,0.105714
866.97,0.0375134
868.02,0.209513
868.94,0.0879889
870,0.131794
871.03,0
871.94,0.199019
872.98,0.0314242
874.02,0.156947
875.06,0
875.97,0
877.01,0.163589
878.05,0.0997923
878.96,0.0313655
880,0.213936
881.03,0
881.94,0.144294
882.98,0.580185
884.02,0
885.06,0.124861
885.97,0
887.01,0.106491
888.05,0
888.96,0.0251053
890,0
891.03,0.0881007
891.94,0
892.98,0.224822
894.02,0
895.06,0
895.97,0.165573
897.01,0
898.05,0
898.96,0.258045
900,0.0822504